Folder: easyXRD_examples/data/LaB6

File: LaB6_synchrotron_XRD_from_28ID-2.xy
0.349857 15.4595
0.4061 24.1971
0.462342 25.2767
0.518584 25.1462
0.574826 25.4347
0.631069 26.0216
0.687312 26.367
0.743555 25.2118
0.799798 24.1429
0.856041 23.2234
0.912284 22.3142
0.968528 21.6661
1.02477 21.2418
1.08102 20.8382
1.13726 20.6645
1.19351 20.5191
1.24975 20.5607
1.306 20.5308
1.36224 20.4399
1.41849 20.2367
1.47473 20.0986
1.53098 19.8748
1.58723 19.6805
1.64347 19.59
1.69972 19.5172
1.75597 19.5422
1.81222 19.4547
1.86847 19.453
1.92472 19.4442
1.98097 19.4478
2.03722 19.2793
2.09347 19.1216
2.14972 18.9936
2.20597 18.8783
2.26222 18.6926
2.31848 18.5043
2.37473 18.5252
2.43098 18.7941
2.48724 253.555
2.54349 19.3393
2.59975 17.7144
2.65601 17.2195
2.71226 16.8905
2.76852 16.6334
2.82478 16.4391
2.88104 16.2843
2.9373 16.0165
2.99356 15.9151
3.04982 15.7551
3.10608 15.5176
3.16235 15.329
3.21861 15.1795
3.27487 14.9801
3.33114 14.9147
3.38741 14.9102
3.44367 15.1877
3.49994 20.2483
3.55621 85.6768
3.61248 14.9908
3.66875 14.0448
3.72502 13.6538
3.78129 13.427
3.83756 13.3457
3.89384 13.0871
3.95011 12.9572
4.00639 12.8478
4.06267 12.7995
4.11894 12.7154
4.17522 12.7049
4.2315 12.8303
4.28778 14.2224
4.34406 144.176
4.40035 12.9062
4.45663 12.3986
4.51291 12.2138
4.5692 12.1285
4.62549 12.0676
4.68178 11.9583
4.73806 11.8664
4.79436 11.864
4.85065 11.9507
4.90694 12.0393
4.96323 13.1072
5.01953 42.958
5.07583 12.0945
5.13212 11.7913
5.18842 11.8159
5.24472 11.7329
5.30102 11.7548
5.35733 11.7358
5.41363 11.7536
5.46994 11.8675
5.52624 12.5219
5.58255 291.376
5.63886 13.1065
5.69517 11.8354
5.75148 11.5099
5.8078 11.3856
5.86411 11.3823
5.92043 11.3773
5.97674 11.4001
6.03306 11.4648
6.08938 13.1716
6.14571 46.7701
6.20203 11.5293
6.25835 11.2128
6.31468 11.1442
6.37101 11.0923
6.42734 11.0024
6.48367 11.0587
6.54 10.9786
6.59634 10.9717
6.65267 10.9671
6.70901 11.0204
6.76535 11.0229
6.82169 11.0091
6.87803 10.996
6.93438 11.086
6.99072 11.1532
7.04707 16.1363
7.10342 13.9702
7.15977 11.1868
7.21612 11.1413
7.27248 11.1608
7.32883 11.1396
7.38519 11.3249
7.44155 11.7471
7.49791 184.468
7.55427 12.0687
7.61064 11.3523
7.66701 11.2604
7.72338 11.1016
7.77975 11.1049
7.83612 11.2806
7.89249 61.5682
7.94887 12.4425
8.00525 11.106
8.06163 10.9342
8.11801 10.9329
8.17439 10.9087
8.23078 11.116
8.28717 71.3142
8.34356 11.2609
8.39995 10.817
8.45634 10.6225
8.51274 10.603
8.56914 10.4677
8.62554 10.5767
8.68194 17.544
8.73835 10.4259
8.79475 10.3787
8.85116 10.3384
8.90757 10.3938
8.96399 10.5002
9.0204 53.5909
9.07682 10.4658
9.13324 10.3785
9.18966 10.2574
9.24609 10.2764
9.30251 10.631
9.35894 95.6729
9.41537 10.6551
9.47181 10.3036
9.52824 10.1845
9.58468 10.1498
9.64112 10.1442
9.69756 10.1614
9.75401 10.0997
9.81045 10.0987
9.8669 10.1056
9.92336 10.1864
9.97981 11.1319
10.0363 12.6844
10.0927 10.2089
10.1492 10.1955
10.2057 10.2667
10.2621 10.5108
10.3186 70.825
10.3751 10.5938
10.4315 10.2611
10.488 10.245
10.5445 10.3313
10.601 35.5163
10.6575 11.2491
10.7139 10.2782
10.7704 10.2143
10.8269 10.23
10.8834 12.8716
10.9399 13.0834
10.9964 10.2779
11.0529 10.1687
11.1094 10.1753
11.1659 12.8302
11.2225 16.5952
11.279 10.2527
11.3355 10.2858
11.392 10.2949
11.4485 23.3927
11.505 15.3446
11.5616 10.3624
11.6181 10.2616
11.6746 10.3338
11.7312 26.8404
11.7877 10.4831
11.8443 10.2243
11.9008 10.2038
11.9573 10.1459
12.0139 10.1708
12.0705 10.2204
12.127 10.2092
12.1836 10.2752
12.2401 12.002
12.2967 13.6336
12.3533 10.4293
12.4098 10.3677
12.4664 10.417
12.523 21.1528
12.5796 10.5809
12.6362 10.5044
12.6927 10.6498
12.7493 27.881
12.8059 16.3939
12.8625 10.7451
12.9191 10.6616
12.9757 11.0402
13.0323 26.6767
13.0889 10.7724
13.1456 10.6298
13.2022 10.5326
13.2588 10.65
13.3154 10.661
13.372 10.7305
13.4287 10.8293
13.4853 38.7925
13.5419 11.1188
13.5986 10.8462
13.6552 10.8089
13.7119 19.3836
13.7685 11.0347
13.8252 10.7922
13.8818 10.7279
13.9385 10.8483
13.9951 10.7717
14.0518 10.8451
14.1085 10.8844
14.1651 15.2332
14.2218 11.0899
14.2785 10.9683
14.3352 11.066
14.3919 28.6927
14.4486 11.244
14.5052 11.0279
14.5619 11.1836
14.6186 28.871
14.6753 11.2548
14.7321 11.1006
14.7888 11.2783
14.8455 24.7672
14.9022 11.1214
14.9589 11.0787
15.0157 13.0819
15.0724 15.499
15.1291 11.1057
15.1859 11.1442
15.2426 15.169
15.2993 11.2433
15.3561 11.1927
15.4128 11.2392
15.4696 24.6402
15.5264 11.3665
15.5831 11.2239
15.6399 11.2333
15.6967 11.2345
15.7534 11.2916
15.8102 11.245
15.867 16.6357
15.9238 11.2518
15.9806 11.4018
16.0374 19.4138
16.0942 19.1077
16.151 11.3797
16.2078 11.4341
16.2646 18.1118
16.3214 11.5616
16.3782 11.6451
16.4351 13.8739
16.4919 11.415
16.5487 10.5205
16.6055 11.5187
16.6624 13.5882
16.7192 11.3541
16.7761 12.1062
16.8329 22.8737
16.8898 11.3596
16.9466 10.8222
16.9634 11.273